toad.id,sex,age,task.type,reward.position,choice,latency,trial,lt,learntMW01,1,A,reversal,L,1,64,1,1,1MW01,1,A,reversal,L,0,109,2,1,1MW01,1,A,reversal,L,1,63,3,1,1MW01,1,A,reversal,L,0,74,4,1,1MW01,1,A,reversal,L,1,NA,5,1,1MW01,1,A,reversal,L,1,39,6,1,1MW01,1,A,reversal,L,1,64,7,1,1MW01,1,A,reversal,L,1,42,8,1,1MW01,1,A,reversal,L,1,32,9,1,1MW02,1,A,reversal,L,0,78,1,1,1MW02,1,A,reversal,L,0,23,2,1,1MW02,1,A,reversal,L,0,72,3,1,1MW02,1,A,reversal,L,1,46,4,1,1MW02,1,A,reversal,L,0,28,5,1,1MW02,1,A,reversal,L,1,34,6,1,1MW02,1,A,reversal,L,1,46,7,1,1MW02,1,A,reversal,L,0,98,8,1,1MW02,1,A,reversal,L,1,363,9,1,1MW02,1,A,reversal,L,0,109,10,1,1MW02,1,A,reversal,L,1,33,11,1,1MW02,1,A,reversal,L,1,68,12,1,1MW02,1,A,reversal,L,1,103,13,1,1MW02,1,A,reversal,L,1,64,14,1,1MW03,1,A,reversal,R,0,63,1,1,1MW03,1,A,reversal,R,0,NA,2,1,1MW03,1,A,reversal,R,0,NA,3,1,1MW03,1,A,reversal,R,1,71,4,1,1MW03,1,A,reversal,R,1,52,5,1,1MW03,1,A,reversal,R,0,182,6,1,1MW03,1,A,reversal,R,0,60,7,1,1MW03,1,A,reversal,R,0,87,8,1,1MW03,1,A,reversal,R,0,40,9,1,1MW03,1,A,reversal,R,1,30,10,1,1MW03,1,A,reversal,R,1,43,11,1,1MW03,1,A,reversal,R,0,118,12,1,1MW03,1,A,reversal,R,1,66,13,1,1MW03,1,A,reversal,R,1,115,14,1,1MW03,1,A,reversal,R,1,65,15,1,1MW03,1,A,reversal,R,1,98,16,1,1MW03,1,A,reversal,R,1,70,17,1,1MW04,1,A,reversal,R,1,125,1,1,1MW04,1,A,reversal,R,1,206,2,1,1MW04,1,A,reversal,R,0,182,3,1,1MW04,1,A,reversal,R,1,393,4,1,1MW04,1,A,reversal,R,1,158,5,1,1MW04,1,A,reversal,R,0,124,6,1,1MW04,1,A,reversal,R,0,52,7,1,1MW04,1,A,reversal,R,1,59,8,1,1MW04,1,A,reversal,R,0,280,9,1,1MW04,1,A,reversal,R,1,333,10,1,1MW04,1,A,reversal,R,1,60,11,1,1MW04,1,A,reversal,R,1,43,12,1,1MW04,1,A,reversal,R,0,82,13,1,1MW04,1,A,reversal,R,1,52,14,1,1MW04,1,A,reversal,R,0,83,15,1,1MW04,1,A,reversal,R,0,62,16,1,1MW04,1,A,reversal,R,1,30,17,1,1MW04,1,A,reversal,R,0,31,18,1,1MW04,1,A,reversal,R,0,47,19,1,1MW04,1,A,reversal,R,1,57,20,1,1MW04,1,A,reversal,R,1,NA,21,1,1MW04,1,A,reversal,R,1,50,22,1,1MW04,1,A,reversal,R,1,52,23,1,1MW04,1,A,reversal,R,1,278,24,1,1MW04,1,A,reversal,R,1,315,25,1,1MW05,0,A,reversal,L,0,168,1,1,1MW05,0,A,reversal,L,0,80,2,1,1MW05,0,A,reversal,L,0,48,3,1,1MW05,0,A,reversal,L,0,48,4,1,1MW05,0,A,reversal,L,1,235,5,1,1MW05,0,A,reversal,L,1,301,6,1,1MW05,0,A,reversal,L,1,325,7,1,1MW05,0,A,reversal,L,1,659,8,1,1MW05,0,A,reversal,L,1,420,9,1,1MW05,0,A,reversal,L,0,120,10,1,1MW05,0,A,reversal,L,1,190,11,1,1MW05,0,A,reversal,L,1,178,12,1,1MW06,1,A,reversal,R,1,98,1,1,1MW06,1,A,reversal,R,0,217,2,1,1MW06,1,A,reversal,R,0,28,3,1,1MW06,1,A,reversal,R,0,145,4,1,1MW06,1,A,reversal,R,0,59,5,1,1MW06,1,A,reversal,R,1,204,6,1,1MW06,1,A,reversal,R,0,162,7,1,1MW06,1,A,reversal,R,1,NA,8,1,1MW06,1,A,reversal,R,1,369,9,1,1MW06,1,A,reversal,R,0,236,10,1,1MW06,1,A,reversal,R,0,103,11,1,1MW06,1,A,reversal,R,1,165,12,1,1MW06,1,A,reversal,R,0,88,13,1,1MW06,1,A,reversal,R,1,189,14,1,1MW06,1,A,reversal,R,1,147,15,1,1MW06,1,A,reversal,R,1,61,16,1,1MW06,1,A,reversal,R,0,140,17,1,1MW06,1,A,reversal,R,1,335,18,1,1MW06,1,A,reversal,R,1,76,19,1,1MW06,1,A,reversal,R,1,166,20,1,1MW07,0,A,reversal,L,0,16,1,1,1MW07,0,A,reversal,L,1,26,2,1,1MW07,0,A,reversal,L,0,41,3,1,1MW07,0,A,reversal,L,0,100,4,1,1MW07,0,A,reversal,L,1,28,5,1,1MW07,0,A,reversal,L,0,305,6,1,1MW07,0,A,reversal,L,1,96,7,1,1MW07,0,A,reversal,L,1,134,8,1,1MW07,0,A,reversal,L,1,384,9,1,1MW07,0,A,reversal,L,1,410,10,1,1MW07,0,A,reversal,L,1,244,11,1,1MW07,0,A,reversal,L,0,113,12,1,1MW07,0,A,reversal,L,0,64,13,1,1MW07,0,A,reversal,L,1,38,14,1,1MW07,0,A,reversal,L,1,88,15,1,1MW08,0,A,reversal,L,0,33,1,1,1MW08,0,A,reversal,L,0,36,2,1,1MW08,0,A,reversal,L,1,317,3,1,1MW08,0,A,reversal,L,1,240,4,1,1MW08,0,A,reversal,L,0,120,5,1,1MW08,0,A,reversal,L,0,132,6,1,1MW08,0,A,reversal,L,1,112,7,1,1MW08,0,A,reversal,L,0,70,8,1,1MW08,0,A,reversal,L,0,7,9,1,1MW08,0,A,reversal,L,0,6,10,1,1MW08,0,A,reversal,L,1,28,11,1,1MW08,0,A,reversal,L,1,78,12,1,1MW08,0,A,reversal,L,1,123,13,1,1MW08,0,A,reversal,L,0,97,14,1,1MW08,0,A,reversal,L,0,68,15,1,1MW08,0,A,reversal,L,1,89,16,1,1MW08,0,A,reversal,L,0,85,17,1,1MW08,0,A,reversal,L,1,120,18,1,1MW08,0,A,reversal,L,1,64,19,1,1MW08,0,A,reversal,L,1,26,20,1,1MW08,0,A,reversal,L,0,228,21,1,1MW08,0,A,reversal,L,1,91,22,1,1MW08,0,A,reversal,L,1,123,23,1,1MW08,0,A,reversal,L,1,44,24,1,1MW09,0,A,reversal,R,0,134,1,1,1MW09,0,A,reversal,R,0,170,2,1,1MW09,0,A,reversal,R,1,149,3,1,1MW09,0,A,reversal,R,0,120,4,1,1MW09,0,A,reversal,R,1,31,5,1,1MW09,0,A,reversal,R,1,129,6,1,1MW09,0,A,reversal,R,1,78,7,1,1MW09,0,A,reversal,R,0,17,8,1,1MW09,0,A,reversal,R,1,120,9,1,1MW09,0,A,reversal,R,0,87,10,1,1MW09,0,A,reversal,R,1,10,11,1,1MW09,0,A,reversal,R,0,49,12,1,1MW09,0,A,reversal,R,1,48,13,1,1MW09,0,A,reversal,R,1,26,14,1,1MW09,0,A,reversal,R,0,19,15,1,1MW09,0,A,reversal,R,1,62,16,1,1MW09,0,A,reversal,R,1,288,17,1,1MW09,0,A,reversal,R,1,149,18,1,1MW09,0,A,reversal,R,1,208,19,1,1MW10,1,A,reversal,R,1,70,1,1,1MW10,1,A,reversal,R,1,320,2,1,1MW10,1,A,reversal,R,1,62,3,1,1MW10,1,A,reversal,R,1,56,4,1,1MW10,1,A,reversal,R,1,52,5,1,1MW10,1,A,reversal,R,1,270,6,1,1MW10,1,A,reversal,R,1,404,7,1,1MW11,1,A,reversal,L,1,27,1,1,1MW11,1,A,reversal,L,0,127,2,1,1MW11,1,A,reversal,L,0,33,3,1,1MW11,1,A,reversal,L,0,54,4,1,1MW11,1,A,reversal,L,1,120,5,1,1MW11,1,A,reversal,L,0,54,6,1,1MW11,1,A,reversal,L,1,110,7,1,1MW11,1,A,reversal,L,0,94,8,1,1MW11,1,A,reversal,L,0,118,9,1,1MW11,1,A,reversal,L,1,348,10,1,1MW11,1,A,reversal,L,1,366,11,1,1MW11,1,A,reversal,L,0,197,12,1,1MW11,1,A,reversal,L,1,248,13,1,1MW11,1,A,reversal,L,1,311,14,1,1MW11,1,A,reversal,L,1,151,15,1,1MW11,1,A,reversal,L,1,180,16,1,1MW11,1,A,reversal,L,1,304,17,1,1MW12,0,A,reversal,R,1,223,1,1,1MW12,0,A,reversal,R,0,186,2,1,1MW12,0,A,reversal,R,0,59,3,1,1MW12,0,A,reversal,R,1,186,4,1,1MW12,0,A,reversal,R,1,60,5,1,1MW12,0,A,reversal,R,0,100,6,1,1MW12,0,A,reversal,R,0,126,7,1,1MW12,0,A,reversal,R,0,111,8,1,1MW12,0,A,reversal,R,1,85,9,1,1MW12,0,A,reversal,R,0,285,10,1,1MW12,0,A,reversal,R,0,180,11,1,1MW12,0,A,reversal,R,1,110,12,1,1MW12,0,A,reversal,R,0,111,13,1,1MW12,0,A,reversal,R,0,85,14,1,1MW12,0,A,reversal,R,0,97,15,1,1MW12,0,A,reversal,R,1,125,16,1,1MW12,0,A,reversal,R,1,115,17,1,1MW12,0,A,reversal,R,1,110,18,1,1MW12,0,A,reversal,R,1,96,19,1,1MW12,0,A,reversal,R,1,146,20,1,1MW12,0,A,reversal,R,1,304,21,1,1MW12,0,A,reversal,R,1,87,22,1,1MW13,1,A,reversal,R,0,222,1,1,1MW13,1,A,reversal,R,1,205,2,1,1MW13,1,A,reversal,R,0,164,3,1,1MW13,1,A,reversal,R,1,355,4,1,1MW13,1,A,reversal,R,0,154,5,1,1MW13,1,A,reversal,R,0,80,6,1,1MW13,1,A,reversal,R,1,110,7,1,1MW13,1,A,reversal,R,0,54,8,1,1MW13,1,A,reversal,R,0,382,9,1,1MW13,1,A,reversal,R,0,210,10,1,1MW13,1,A,reversal,R,0,60,11,1,1MW13,1,A,reversal,R,0,300,12,1,1MW13,1,A,reversal,R,1,326,13,1,1MW13,1,A,reversal,R,1,75,14,1,1MW13,1,A,reversal,R,1,302,15,1,1MW13,1,A,reversal,R,1,334,16,1,1MW13,1,A,reversal,R,0,286,17,1,1MW13,1,A,reversal,R,1,174,18,1,1MW13,1,A,reversal,R,1,121,19,1,1MW13,1,A,reversal,R,1,376,20,1,1MW14,0,A,reversal,R,1,88,1,1,1MW14,0,A,reversal,R,1,136,2,1,1MW14,0,A,reversal,R,1,158,3,1,1MW14,0,A,reversal,R,0,41,4,1,1MW14,0,A,reversal,R,0,94,5,1,1MW14,0,A,reversal,R,1,95,6,1,1MW14,0,A,reversal,R,0,172,7,1,1MW14,0,A,reversal,R,0,112,8,1,1MW14,0,A,reversal,R,0,119,9,1,1MW14,0,A,reversal,R,0,38,10,1,1MW14,0,A,reversal,R,1,40,11,1,1MW14,0,A,reversal,R,1,115,12,1,1MW14,0,A,reversal,R,1,300,13,1,1MW14,0,A,reversal,R,1,140,14,1,1MW14,0,A,reversal,R,1,315,15,1,1MW14,0,A,reversal,R,1,203,16,1,1MW14,0,A,reversal,R,1,176,17,1,1MW15,1,A,reversal,L,1,35,1,1,1MW15,1,A,reversal,L,0,35,2,1,1MW15,1,A,reversal,L,0,77,3,1,1MW15,1,A,reversal,L,0,60,4,1,1MW15,1,A,reversal,L,0,32,5,1,1MW15,1,A,reversal,L,0,30,6,1,1MW15,1,A,reversal,L,0,110,7,1,1MW15,1,A,reversal,L,0,27,8,1,1MW15,1,A,reversal,L,1,39,9,1,1MW15,1,A,reversal,L,0,44,10,1,1MW15,1,A,reversal,L,0,95,11,1,1MW15,1,A,reversal,L,0,30,12,1,1MW15,1,A,reversal,L,0,25,13,1,1MW15,1,A,reversal,L,1,97,14,1,1MW15,1,A,reversal,L,0,41,15,1,1MW15,1,A,reversal,L,0,49,16,1,1MW15,1,A,reversal,L,1,280,17,1,1MW15,1,A,reversal,L,1,276,18,1,1MW15,1,A,reversal,L,1,207,19,1,1MW15,1,A,reversal,L,1,377,20,1,1MW15,1,A,reversal,L,1,177,21,1,1MW15,1,A,reversal,L,0,380,22,1,1MW15,1,A,reversal,L,1,136,23,1,1MW15,1,A,reversal,L,1,216,24,1,1MW16,1,A,reversal,L,0,395,1,1,1MW16,1,A,reversal,L,0,261,2,1,1MW16,1,A,reversal,L,0,235,3,1,1MW16,1,A,reversal,L,0,385,4,1,1MW16,1,A,reversal,L,0,212,5,1,1MW16,1,A,reversal,L,1,125,6,1,1MW16,1,A,reversal,L,1,98,7,1,1MW16,1,A,reversal,L,1,300,8,1,1MW16,1,A,reversal,L,1,94,9,1,1MW16,1,A,reversal,L,1,210,10,1,1MW16,1,A,reversal,L,1,196,11,1,1MW16,1,A,reversal,L,1,307,12,1,1MW17,0,A,reversal,R,0,300,1,1,1MW17,0,A,reversal,R,1,240,2,1,1MW17,0,A,reversal,R,0,120,3,1,1MW17,0,A,reversal,R,1,367,4,1,1MW17,0,A,reversal,R,1,115,5,1,1MW17,0,A,reversal,R,1,93,6,1,1MW17,0,A,reversal,R,1,81,7,1,1MW17,0,A,reversal,R,0,186,8,1,1MW17,0,A,reversal,R,1,110,9,1,1MW17,0,A,reversal,R,1,156,10,1,1MW18,0,A,reversal,R,0,148,1,1,1MW18,0,A,reversal,R,0,97,2,1,1MW18,0,A,reversal,R,1,224,3,1,1MW18,0,A,reversal,R,0,396,4,1,1MW18,0,A,reversal,R,1,246,5,1,1MW18,0,A,reversal,R,1,180,6,1,1MW18,0,A,reversal,R,1,120,7,1,1MW18,0,A,reversal,R,1,330,8,1,1MW18,0,A,reversal,R,1,165,9,1,1MW18,0,A,reversal,R,1,243,10,1,1MW19,0,A,reversal,L,0,NA,1,1,1MW19,0,A,reversal,L,0,327,2,1,1MW19,0,A,reversal,L,1,230,3,1,1MW19,0,A,reversal,L,0,400,4,1,1MW19,0,A,reversal,L,0,247,5,1,1MW19,0,A,reversal,L,1,45,6,1,1MW19,0,A,reversal,L,0,153,7,1,1MW19,0,A,reversal,L,0,162,8,1,1MW19,0,A,reversal,L,1,382,9,1,1MW19,0,A,reversal,L,1,260,10,1,1MW19,0,A,reversal,L,1,84,11,1,1MW19,0,A,reversal,L,1,87,12,1,1MW19,0,A,reversal,L,1,150,13,1,1MW19,0,A,reversal,L,1,400,14,1,1MW20,0,A,reversal,L,1,190,1,1,1MW20,0,A,reversal,L,0,393,2,1,1MW20,0,A,reversal,L,0,223,3,1,1MW20,0,A,reversal,L,0,205,4,1,1MW20,0,A,reversal,L,0,133,5,1,1MW20,0,A,reversal,L,1,224,6,1,1MW20,0,A,reversal,L,0,103,7,1,1MW20,0,A,reversal,L,1,274,8,1,1MW20,0,A,reversal,L,0,93,9,1,1MW20,0,A,reversal,L,1,182,10,1,1MW20,0,A,reversal,L,1,196,11,1,1MW20,0,A,reversal,L,1,183,12,1,1MW20,0,A,reversal,L,1,90,13,1,1MW20,0,A,reversal,L,1,67,14,1,1