toad.id,sex,age,task.type,reward.position,choice,latency,trial,lt,learntMW01,1,A,association,R,0,433,1,1,1MW01,1,A,association,R,0,301,2,1,1MW01,1,A,association,R,1,96,3,1,1MW01,1,A,association,R,0,77,4,1,1MW01,1,A,association,R,1,370,5,1,1MW01,1,A,association,R,1,50,6,1,1MW01,1,A,association,R,1,40,7,1,1MW01,1,A,association,R,1,95,8,1,1MW01,1,A,association,R,0,133,9,1,1MW01,1,A,association,R,0,24,10,1,1MW01,1,A,association,R,1,101,11,1,1MW01,1,A,association,R,1,92,12,1,1MW01,1,A,association,R,1,420,13,1,1MW02,1,A,association,R,1,110,1,1,1MW02,1,A,association,R,1,10,2,1,1MW02,1,A,association,R,1,10,3,1,1MW02,1,A,association,R,1,47,4,1,1MW02,1,A,association,R,1,49,5,1,1MW02,1,A,association,R,1,240,6,1,1MW02,1,A,association,R,1,89,7,1,1MW03,1,A,association,L,0,122,1,1,1MW03,1,A,association,L,1,36,2,1,1MW03,1,A,association,L,0,74,3,1,1MW03,1,A,association,L,1,42,4,1,1MW03,1,A,association,L,0,108,5,1,1MW03,1,A,association,L,0,80,6,1,1MW03,1,A,association,L,1,300,7,1,1MW03,1,A,association,L,0,64,8,1,1MW03,1,A,association,L,1,42,9,1,1MW03,1,A,association,L,1,14,10,1,1MW03,1,A,association,L,1,23,11,1,1MW03,1,A,association,L,1,32,12,1,1MW03,1,A,association,L,1,45,13,1,1MW03,1,A,association,L,1,77,14,1,1MW04,1,A,association,L,0,116,1,1,1MW04,1,A,association,L,0,337,2,1,1MW04,1,A,association,L,0,63,3,1,1MW04,1,A,association,L,1,63,4,1,1MW04,1,A,association,L,1,204,5,1,1MW04,1,A,association,L,0,78,6,1,1MW04,1,A,association,L,1,90,7,1,1MW04,1,A,association,L,0,200,8,1,1MW04,1,A,association,L,1,132,9,1,1MW04,1,A,association,L,0,95,10,1,1MW04,1,A,association,L,1,86,11,1,1MW04,1,A,association,L,1,57,12,1,1MW04,1,A,association,L,1,109,13,1,1MW04,1,A,association,L,1,168,14,1,1MW04,1,A,association,L,0,289,15,1,1MW04,1,A,association,L,1,90,16,1,1MW04,1,A,association,L,1,206,17,1,1MW05,0,A,association,R,1,NA,1,1,1MW05,0,A,association,R,1,46,2,1,1MW05,0,A,association,R,1,32,3,1,1MW05,0,A,association,R,0,145,4,1,1MW05,0,A,association,R,1,59,5,1,1MW05,0,A,association,R,0,83,6,1,1MW05,0,A,association,R,1,26,7,1,1MW05,0,A,association,R,1,57,8,1,1MW05,0,A,association,R,1,24,9,1,1MW05,0,A,association,R,1,24,10,1,1MW06,1,A,association,L,1,128,1,1,1MW06,1,A,association,L,1,85,2,1,1MW06,1,A,association,L,1,78,3,1,1MW06,1,A,association,L,1,130,4,1,1MW06,1,A,association,L,1,103,5,1,1MW06,1,A,association,L,0,177,6,1,1MW06,1,A,association,L,0,47,7,1,1MW06,1,A,association,L,1,283,8,1,1MW06,1,A,association,L,1,321,9,1,1MW07,0,A,association,R,1,250,1,1,1MW07,0,A,association,R,0,301,2,1,1MW07,0,A,association,R,1,72,3,1,1MW07,0,A,association,R,1,63,4,1,1MW07,0,A,association,R,1,44,5,1,1MW07,0,A,association,R,1,31,6,1,1MW07,0,A,association,R,1,288,7,1,1MW07,0,A,association,R,1,66,8,1,1MW07,0,A,association,R,1,40,9,1,1MW08,0,A,association,R,1,54,1,1,1MW08,0,A,association,R,0,45,2,1,1MW08,0,A,association,R,1,40,3,1,1MW08,0,A,association,R,1,11,4,1,1MW08,0,A,association,R,1,95,5,1,1MW08,0,A,association,R,1,20,6,1,1MW08,0,A,association,R,0,101,7,1,1MW08,0,A,association,R,1,NA,8,1,1MW08,0,A,association,R,1,51,9,1,1MW09,0,A,association,L,1,NA,1,1,1MW09,0,A,association,L,1,188,2,1,1MW09,0,A,association,L,1,138,3,1,1MW09,0,A,association,L,1,150,4,1,1MW09,0,A,association,L,1,346,5,1,1MW09,0,A,association,L,1,362,6,1,1MW09,0,A,association,L,1,53,7,1,1MW09,0,A,association,L,1,49,8,1,1MW10,1,A,association,L,1,339,1,1,1MW10,1,A,association,L,1,123,2,1,1MW10,1,A,association,L,1,109,3,1,1MW10,1,A,association,L,1,101,4,1,1MW10,1,A,association,L,1,41,5,1,1MW10,1,A,association,L,1,74,6,1,1MW10,1,A,association,L,0,166,7,1,1MW10,1,A,association,L,1,145,8,1,1MW11,1,A,association,R,1,301,1,1,1MW11,1,A,association,R,1,41,2,1,1MW11,1,A,association,R,1,330,3,1,1MW11,1,A,association,R,1,23,4,1,1MW11,1,A,association,R,1,54,5,1,1MW11,1,A,association,R,1,53,6,1,1MW11,1,A,association,R,1,96,7,1,1MW12,0,A,association,L,1,43,1,1,1MW12,0,A,association,L,1,160,2,1,1MW12,0,A,association,L,0,61,3,1,1MW12,0,A,association,L,1,248,4,1,1MW12,0,A,association,L,1,95,5,1,1MW12,0,A,association,L,0,126,6,1,1MW12,0,A,association,L,0,415,7,1,1MW12,0,A,association,L,1,97,8,1,1MW12,0,A,association,L,1,127,9,1,1MW12,0,A,association,L,1,242,10,1,1MW12,0,A,association,L,1,91,11,1,1MW12,0,A,association,L,0,62,12,1,1MW12,0,A,association,L,1,42,13,1,1MW12,0,A,association,L,0,250,14,1,1MW12,0,A,association,L,1,148,15,1,1MW12,0,A,association,L,1,118,16,1,1MW13,1,A,association,L,1,150,1,1,1MW13,1,A,association,L,1,35,2,1,1MW13,1,A,association,L,1,80,3,1,1MW13,1,A,association,L,1,119,4,1,1MW13,1,A,association,L,1,350,5,1,1MW13,1,A,association,L,1,180,6,1,1MW13,1,A,association,L,1,39,7,1,1MW14,0,A,association,L,1,51,1,1,1MW14,0,A,association,L,1,370,2,1,1MW14,0,A,association,L,1,270,3,1,1MW14,0,A,association,L,1,240,4,1,1MW14,0,A,association,L,1,141,5,1,1MW14,0,A,association,L,1,176,6,1,1MW14,0,A,association,L,1,214,7,1,1MW15,1,A,association,R,0,400,1,1,1MW15,1,A,association,R,0,140,2,1,1MW15,1,A,association,R,1,45,3,1,1MW15,1,A,association,R,1,172,4,1,1MW15,1,A,association,R,0,94,5,1,1MW15,1,A,association,R,1,64,6,1,1MW15,1,A,association,R,1,84,7,1,1MW15,1,A,association,R,1,60,8,1,1MW15,1,A,association,R,1,93,9,1,1MW15,1,A,association,R,0,189,10,1,1MW15,1,A,association,R,0,110,11,1,1MW15,1,A,association,R,0,118,12,1,1MW15,1,A,association,R,1,240,13,1,1MW15,1,A,association,R,1,60,14,1,1MW15,1,A,association,R,0,96,15,1,1MW15,1,A,association,R,0,82,16,1,1MW15,1,A,association,R,1,231,17,1,1MW15,1,A,association,R,1,530,18,1,1MW15,1,A,association,R,1,128,19,1,1MW15,1,A,association,R,0,52,20,1,1MW15,1,A,association,R,0,161,21,1,1MW15,1,A,association,R,1,45,22,1,1MW15,1,A,association,R,1,52,23,1,1MW15,1,A,association,R,1,94,24,1,1MW15,1,A,association,R,1,27,25,1,1MW16,1,A,association,R,1,366,1,1,1MW16,1,A,association,R,1,237,2,1,1MW16,1,A,association,R,1,254,3,1,1MW16,1,A,association,R,1,118,4,1,1MW16,1,A,association,R,1,150,5,1,1MW16,1,A,association,R,0,146,6,1,1MW16,1,A,association,R,0,84,7,1,1MW16,1,A,association,R,0,63,8,1,1MW16,1,A,association,R,0,27,9,1,1MW16,1,A,association,R,0,65,10,1,1MW16,1,A,association,R,0,16,11,1,1MW16,1,A,association,R,1,324,12,1,1MW16,1,A,association,R,1,210,13,1,1MW16,1,A,association,R,1,390,14,1,1MW16,1,A,association,R,1,229,15,1,1MW16,1,A,association,R,0,46,16,1,1MW16,1,A,association,R,1,400,17,1,1MW16,1,A,association,R,1,116,18,1,1MW16,1,A,association,R,1,44,19,1,1MW17,0,A,association,L,0,390,1,1,1MW17,0,A,association,L,0,80,2,1,1MW17,0,A,association,L,0,170,3,1,1MW17,0,A,association,L,0,81,4,1,1MW17,0,A,association,L,0,113,5,1,1MW17,0,A,association,L,1,99,6,1,1MW17,0,A,association,L,0,125,7,1,1MW17,0,A,association,L,1,135,8,1,1MW17,0,A,association,L,1,127,9,1,1MW17,0,A,association,L,0,231,10,1,1MW17,0,A,association,L,1,36,11,1,1MW17,0,A,association,L,1,120,12,1,1MW17,0,A,association,L,1,199,13,1,1MW17,0,A,association,L,1,367,14,1,1MW18,0,A,association,L,1,397,1,1,1MW18,0,A,association,L,1,98,2,1,1MW18,0,A,association,L,1,80,3,1,1MW18,0,A,association,L,1,303,4,1,1MW18,0,A,association,L,0,180,5,1,1MW18,0,A,association,L,1,294,6,1,1MW18,0,A,association,L,1,349,7,1,1MW18,0,A,association,L,0,185,8,1,1MW18,0,A,association,L,1,58,9,1,1MW19,0,A,association,R,0,47,1,1,1MW19,0,A,association,R,1,240,2,1,1MW19,0,A,association,R,1,193,3,1,1MW19,0,A,association,R,1,90,4,1,1MW19,0,A,association,R,1,370,5,1,1MW19,0,A,association,R,1,230,6,1,1MW19,0,A,association,R,1,220,7,1,1MW19,0,A,association,R,1,170,8,1,1MW20,0,A,association,R,0,434,1,1,1MW20,0,A,association,R,0,292,2,1,1MW20,0,A,association,R,0,200,3,1,1MW20,0,A,association,R,1,323,4,1,1MW20,0,A,association,R,0,162,5,1,1MW20,0,A,association,R,1,77,6,1,1MW20,0,A,association,R,1,94,7,1,1MW20,0,A,association,R,1,76,8,1,1MW20,0,A,association,R,1,112,9,1,1MW20,0,A,association,R,1,224,10,1,1MW20,0,A,association,R,1,364,11,1,1