toad.id,sex,age,task.type,reward.position,choice,latency,trial,lt,learnt,log.latencyMW01,1,A,association,R,0,433,1,1,1,6.070737728MW01,1,A,association,R,0,301,2,1,1,5.707110265MW01,1,A,association,R,1,96,3,1,1,4.564348191MW01,1,A,association,R,0,77,4,1,1,4.343805422MW01,1,A,association,R,1,370,5,1,1,5.913503006MW01,1,A,association,R,1,50,6,1,1,3.912023005MW01,1,A,association,R,1,40,7,1,1,3.688879454MW01,1,A,association,R,1,95,8,1,1,4.553876892MW01,1,A,association,R,0,133,9,1,1,4.890349128MW01,1,A,association,R,0,24,10,1,1,3.17805383MW01,1,A,association,R,1,101,11,1,1,4.615120517MW01,1,A,association,R,1,92,12,1,1,4.521788577MW01,1,A,association,R,1,420,13,1,1,6.040254711MW02,1,A,association,R,1,110,1,1,1,4.700480366MW02,1,A,association,R,1,10,2,1,1,2.302585093MW02,1,A,association,R,1,10,3,1,1,2.302585093MW02,1,A,association,R,1,47,4,1,1,3.850147602MW02,1,A,association,R,1,49,5,1,1,3.891820298MW02,1,A,association,R,1,240,6,1,1,5.480638923MW02,1,A,association,R,1,89,7,1,1,4.48863637MW03,1,A,association,L,0,122,1,1,1,4.804021045MW03,1,A,association,L,1,36,2,1,1,3.583518938MW03,1,A,association,L,0,74,3,1,1,4.304065093MW03,1,A,association,L,1,42,4,1,1,3.737669618MW03,1,A,association,L,0,108,5,1,1,4.682131227MW03,1,A,association,L,0,80,6,1,1,4.382026635MW03,1,A,association,L,1,300,7,1,1,5.703782475MW03,1,A,association,L,0,64,8,1,1,4.158883083MW03,1,A,association,L,1,42,9,1,1,3.737669618MW03,1,A,association,L,1,14,10,1,1,2.63905733MW03,1,A,association,L,1,23,11,1,1,3.135494216MW03,1,A,association,L,1,32,12,1,1,3.465735903MW03,1,A,association,L,1,45,13,1,1,3.80666249MW03,1,A,association,L,1,77,14,1,1,4.343805422MW04,1,A,association,L,0,116,1,1,1,4.753590191MW04,1,A,association,L,0,337,2,1,1,5.82008293MW04,1,A,association,L,0,63,3,1,1,4.143134726MW04,1,A,association,L,1,63,4,1,1,4.143134726MW04,1,A,association,L,1,204,5,1,1,5.318119994MW04,1,A,association,L,0,78,6,1,1,4.356708827MW04,1,A,association,L,1,90,7,1,1,4.49980967MW04,1,A,association,L,0,200,8,1,1,5.298317367MW04,1,A,association,L,1,132,9,1,1,4.882801923MW04,1,A,association,L,0,95,10,1,1,4.553876892MW04,1,A,association,L,1,86,11,1,1,4.454347296MW04,1,A,association,L,1,57,12,1,1,4.043051268MW04,1,A,association,L,1,109,13,1,1,4.691347882MW04,1,A,association,L,1,168,14,1,1,5.123963979MW04,1,A,association,L,0,289,15,1,1,5.666426688MW04,1,A,association,L,1,90,16,1,1,4.49980967MW04,1,A,association,L,1,206,17,1,1,5.327876169MW05,0,A,association,R,1,NA,1,1,1,NAMW05,0,A,association,R,1,46,2,1,1,3.828641396MW05,0,A,association,R,1,32,3,1,1,3.465735903MW05,0,A,association,R,0,145,4,1,1,4.976733742MW05,0,A,association,R,1,59,5,1,1,4.077537444MW05,0,A,association,R,0,83,6,1,1,4.418840608MW05,0,A,association,R,1,26,7,1,1,3.258096538MW05,0,A,association,R,1,57,8,1,1,4.043051268MW05,0,A,association,R,1,24,9,1,1,3.17805383MW05,0,A,association,R,1,24,10,1,1,3.17805383MW06,1,A,association,L,1,128,1,1,1,4.852030264MW06,1,A,association,L,1,85,2,1,1,4.442651256MW06,1,A,association,L,1,78,3,1,1,4.356708827MW06,1,A,association,L,1,130,4,1,1,4.86753445MW06,1,A,association,L,1,103,5,1,1,4.634728988MW06,1,A,association,L,0,177,6,1,1,5.176149733MW06,1,A,association,L,0,47,7,1,1,3.850147602MW06,1,A,association,L,1,283,8,1,1,5.645446898MW06,1,A,association,L,1,321,9,1,1,5.771441123MW07,0,A,association,R,1,250,1,1,1,5.521460918MW07,0,A,association,R,0,301,2,1,1,5.707110265MW07,0,A,association,R,1,72,3,1,1,4.276666119MW07,0,A,association,R,1,63,4,1,1,4.143134726MW07,0,A,association,R,1,44,5,1,1,3.784189634MW07,0,A,association,R,1,31,6,1,1,3.433987204MW07,0,A,association,R,1,288,7,1,1,5.66296048MW07,0,A,association,R,1,66,8,1,1,4.189654742MW07,0,A,association,R,1,40,9,1,1,3.688879454MW08,0,A,association,R,1,54,1,1,1,3.988984047MW08,0,A,association,R,0,45,2,1,1,3.80666249MW08,0,A,association,R,1,40,3,1,1,3.688879454MW08,0,A,association,R,1,11,4,1,1,2.397895273MW08,0,A,association,R,1,95,5,1,1,4.553876892MW08,0,A,association,R,1,20,6,1,1,2.995732274MW08,0,A,association,R,0,101,7,1,1,4.615120517MW08,0,A,association,R,1,NA,8,1,1,NAMW08,0,A,association,R,1,51,9,1,1,3.931825633MW09,0,A,association,L,1,NA,1,1,1,NAMW09,0,A,association,L,1,188,2,1,1,5.236441963MW09,0,A,association,L,1,138,3,1,1,4.927253685MW09,0,A,association,L,1,150,4,1,1,5.010635294MW09,0,A,association,L,1,346,5,1,1,5.846438775MW09,0,A,association,L,1,362,6,1,1,5.891644212MW09,0,A,association,L,1,53,7,1,1,3.970291914MW09,0,A,association,L,1,49,8,1,1,3.891820298MW10,1,A,association,L,1,339,1,1,1,5.826000107MW10,1,A,association,L,1,123,2,1,1,4.812184355MW10,1,A,association,L,1,109,3,1,1,4.691347882MW10,1,A,association,L,1,101,4,1,1,4.615120517MW10,1,A,association,L,1,41,5,1,1,3.713572067MW10,1,A,association,L,1,74,6,1,1,4.304065093MW10,1,A,association,L,0,166,7,1,1,5.111987788MW10,1,A,association,L,1,145,8,1,1,4.976733742MW11,1,A,association,R,1,301,1,1,1,5.707110265MW11,1,A,association,R,1,41,2,1,1,3.713572067MW11,1,A,association,R,1,330,3,1,1,5.799092654MW11,1,A,association,R,1,23,4,1,1,3.135494216MW11,1,A,association,R,1,54,5,1,1,3.988984047MW11,1,A,association,R,1,53,6,1,1,3.970291914MW11,1,A,association,R,1,96,7,1,1,4.564348191MW12,0,A,association,L,1,43,1,1,1,3.761200116MW12,0,A,association,L,1,160,2,1,1,5.075173815MW12,0,A,association,L,0,61,3,1,1,4.110873864MW12,0,A,association,L,1,248,4,1,1,5.513428746MW12,0,A,association,L,1,95,5,1,1,4.553876892MW12,0,A,association,L,0,126,6,1,1,4.836281907MW12,0,A,association,L,0,415,7,1,1,6.02827852MW12,0,A,association,L,1,97,8,1,1,4.574710979MW12,0,A,association,L,1,127,9,1,1,4.844187086MW12,0,A,association,L,1,242,10,1,1,5.488937726MW12,0,A,association,L,1,91,11,1,1,4.510859507MW12,0,A,association,L,0,62,12,1,1,4.127134385MW12,0,A,association,L,1,42,13,1,1,3.737669618MW12,0,A,association,L,0,250,14,1,1,5.521460918MW12,0,A,association,L,1,148,15,1,1,4.997212274MW12,0,A,association,L,1,118,16,1,1,4.770684624MW13,1,A,association,L,1,150,1,1,1,5.010635294MW13,1,A,association,L,1,35,2,1,1,3.555348061MW13,1,A,association,L,1,80,3,1,1,4.382026635MW13,1,A,association,L,1,119,4,1,1,4.779123493MW13,1,A,association,L,1,350,5,1,1,5.857933154MW13,1,A,association,L,1,180,6,1,1,5.192956851MW13,1,A,association,L,1,39,7,1,1,3.663561646MW14,0,A,association,L,1,51,1,1,1,3.931825633MW14,0,A,association,L,1,370,2,1,1,5.913503006MW14,0,A,association,L,1,270,3,1,1,5.598421959MW14,0,A,association,L,1,240,4,1,1,5.480638923MW14,0,A,association,L,1,141,5,1,1,4.94875989MW14,0,A,association,L,1,176,6,1,1,5.170483995MW14,0,A,association,L,1,214,7,1,1,5.365976015MW15,1,A,association,R,0,400,1,1,1,5.991464547MW15,1,A,association,R,0,140,2,1,1,4.941642423MW15,1,A,association,R,1,45,3,1,1,3.80666249MW15,1,A,association,R,1,172,4,1,1,5.147494477MW15,1,A,association,R,0,94,5,1,1,4.543294782MW15,1,A,association,R,1,64,6,1,1,4.158883083MW15,1,A,association,R,1,84,7,1,1,4.430816799MW15,1,A,association,R,1,60,8,1,1,4.094344562MW15,1,A,association,R,1,93,9,1,1,4.532599493MW15,1,A,association,R,0,189,10,1,1,5.241747015MW15,1,A,association,R,0,110,11,1,1,4.700480366MW15,1,A,association,R,0,118,12,1,1,4.770684624MW15,1,A,association,R,1,240,13,1,1,5.480638923MW15,1,A,association,R,1,60,14,1,1,4.094344562MW15,1,A,association,R,0,96,15,1,1,4.564348191MW15,1,A,association,R,0,82,16,1,1,4.406719247MW15,1,A,association,R,1,231,17,1,1,5.442417711MW15,1,A,association,R,1,530,18,1,1,6.272877007MW15,1,A,association,R,1,128,19,1,1,4.852030264MW15,1,A,association,R,0,52,20,1,1,3.951243719MW15,1,A,association,R,0,161,21,1,1,5.081404365MW15,1,A,association,R,1,45,22,1,1,3.80666249MW15,1,A,association,R,1,52,23,1,1,3.951243719MW15,1,A,association,R,1,94,24,1,1,4.543294782MW15,1,A,association,R,1,27,25,1,1,3.295836866MW16,1,A,association,R,1,366,1,1,1,5.902633333MW16,1,A,association,R,1,237,2,1,1,5.468060141MW16,1,A,association,R,1,254,3,1,1,5.537334267MW16,1,A,association,R,1,118,4,1,1,4.770684624MW16,1,A,association,R,1,150,5,1,1,5.010635294MW16,1,A,association,R,0,146,6,1,1,4.983606622MW16,1,A,association,R,0,84,7,1,1,4.430816799MW16,1,A,association,R,0,63,8,1,1,4.143134726MW16,1,A,association,R,0,27,9,1,1,3.295836866MW16,1,A,association,R,0,65,10,1,1,4.17438727MW16,1,A,association,R,0,16,11,1,1,2.772588722MW16,1,A,association,R,1,324,12,1,1,5.780743516MW16,1,A,association,R,1,210,13,1,1,5.347107531MW16,1,A,association,R,1,390,14,1,1,5.966146739MW16,1,A,association,R,1,229,15,1,1,5.433722004MW16,1,A,association,R,0,46,16,1,1,3.828641396MW16,1,A,association,R,1,400,17,1,1,5.991464547MW16,1,A,association,R,1,116,18,1,1,4.753590191MW16,1,A,association,R,1,44,19,1,1,3.784189634MW17,0,A,association,L,0,390,1,1,1,5.966146739MW17,0,A,association,L,0,80,2,1,1,4.382026635MW17,0,A,association,L,0,170,3,1,1,5.135798437MW17,0,A,association,L,0,81,4,1,1,4.394449155MW17,0,A,association,L,0,113,5,1,1,4.727387819MW17,0,A,association,L,1,99,6,1,1,4.59511985MW17,0,A,association,L,0,125,7,1,1,4.828313737MW17,0,A,association,L,1,135,8,1,1,4.905274778MW17,0,A,association,L,1,127,9,1,1,4.844187086MW17,0,A,association,L,0,231,10,1,1,5.442417711MW17,0,A,association,L,1,36,11,1,1,3.583518938MW17,0,A,association,L,1,120,12,1,1,4.787491743MW17,0,A,association,L,1,199,13,1,1,5.293304825MW17,0,A,association,L,1,367,14,1,1,5.905361848MW18,0,A,association,L,1,397,1,1,1,5.983936281MW18,0,A,association,L,1,98,2,1,1,4.584967479MW18,0,A,association,L,1,80,3,1,1,4.382026635MW18,0,A,association,L,1,303,4,1,1,5.713732806MW18,0,A,association,L,0,180,5,1,1,5.192956851MW18,0,A,association,L,1,294,6,1,1,5.683579767MW18,0,A,association,L,1,349,7,1,1,5.855071922MW18,0,A,association,L,0,185,8,1,1,5.220355825MW18,0,A,association,L,1,58,9,1,1,4.060443011MW19,0,A,association,R,0,47,1,1,1,3.850147602MW19,0,A,association,R,1,240,2,1,1,5.480638923MW19,0,A,association,R,1,193,3,1,1,5.262690189MW19,0,A,association,R,1,90,4,1,1,4.49980967MW19,0,A,association,R,1,370,5,1,1,5.913503006MW19,0,A,association,R,1,230,6,1,1,5.438079309MW19,0,A,association,R,1,220,7,1,1,5.393627546MW19,0,A,association,R,1,170,8,1,1,5.135798437MW20,0,A,association,R,0,434,1,1,1,6.073044534MW20,0,A,association,R,0,292,2,1,1,5.676753802MW20,0,A,association,R,0,200,3,1,1,5.298317367MW20,0,A,association,R,1,323,4,1,1,5.777652323MW20,0,A,association,R,0,162,5,1,1,5.087596335MW20,0,A,association,R,1,77,6,1,1,4.343805422MW20,0,A,association,R,1,94,7,1,1,4.543294782MW20,0,A,association,R,1,76,8,1,1,4.33073334MW20,0,A,association,R,1,112,9,1,1,4.718498871MW20,0,A,association,R,1,224,10,1,1,5.411646052MW20,0,A,association,R,1,364,11,1,1,5.897153868